r_sound_1,l_sound_1,correct_1,r_sound_2,l_sound_2,correct_2,order_1,order_2,trials.thisRepN,trials.thisTrialN,trials.thisN,trials.thisIndex,instructions_text.started,trigger_catch.started,trigger_catch.keys,trigger_catch.rt,sound_stim.started,participant,session,date,expName,psychopyVersion,frameRate,
,,,,,,,,,,,,11.818062958001974,11.818062958001974,5,7.721852957998635,,test,001,2023-08-02_15h20.01.400,exposure_order_1,2022.2.5,None,
pi_tu_bi.wav,tu_bi_pi.wav,z,du_ti_ta.wav,ta_ti_du.wav,m,ta.wav,di.wav,0,0,0,0,,,,,19.62959916633675,test,001,2023-08-02_15h20.01.400,exposure_order_1,2022.2.5,None,
pa_bu_da.wav,bu_pa_da.wav,m,di_ba_pu.wav,ba_di_pu.wav,z,ti.wav,ba.wav,0,1,1,1,,,,,20.098643624667844,test,001,2023-08-02_15h20.01.400,exposure_order_1,2022.2.5,None,
ba_di_pu.wav,di_ba_pu.wav,m,bu_pa_da.wav,pa_bu_da.wav,z,du.wav,pu.wav,0,2,2,2,,,,,20.565611624668477,test,001,2023-08-02_15h20.01.400,exposure_order_1,2022.2.5,None,
ta_ti_du.wav,du_ti_ta.wav,z,tu_bi_pi.wav,pi_tu_bi.wav,m,pi.wav,ta.wav,0,3,3,3,,,,,21.031831124666738,test,001,2023-08-02_15h20.01.400,exposure_order_1,2022.2.5,None,
None,None,None,None,None,None,tu.wav,ti.wav,0,4,4,4,,,,,21.498528999669603,test,001,2023-08-02_15h20.01.400,exposure_order_1,2022.2.5,None,
None,None,None,None,None,None,bi.wav,du.wav,0,5,5,5,,,,,21.965474832668647,test,001,2023-08-02_15h20.01.400,exposure_order_1,2022.2.5,None,
None,None,None,None,None,None,di.wav,bu.wav,0,6,6,6,,,,,22.43180833266912,test,001,2023-08-02_15h20.01.400,exposure_order_1,2022.2.5,None,
None,None,None,None,None,None,ba.wav,pa.wav,0,7,7,7,,,,,22.898936249668864,test,001,2023-08-02_15h20.01.400,exposure_order_1,2022.2.5,None,
None,None,None,None,None,None,pu.wav,da.wav,0,8,8,8,,,,,23.365471041666993,test,001,2023-08-02_15h20.01.400,exposure_order_1,2022.2.5,None,
None,None,None,None,None,None,bu.wav,pi.wav,0,9,9,9,,,,,23.845419624667798,test,001,2023-08-02_15h20.01.400,exposure_order_1,2022.2.5,None,
None,None,None,None,None,None,pa.wav,tu.wav,0,10,10,10,,,,,24.31350849966863,test,001,2023-08-02_15h20.01.400,exposure_order_1,2022.2.5,None,
None,None,None,None,None,None,da.wav,bi.wav,0,11,11,11,,,,,24.780023332667284,test,001,2023-08-02_15h20.01.400,exposure_order_1,2022.2.5,None,
None,None,None,None,None,None,di.wav,di.wav,0,12,12,12,,,,,25.246691249667734,test,001,2023-08-02_15h20.01.400,exposure_order_1,2022.2.5,None,
None,None,None,None,None,None,ba.wav,ba.wav,0,13,13,13,,,,,25.71347545766936,test,001,2023-08-02_15h20.01.400,exposure_order_1,2022.2.5,None,
None,None,None,None,None,None,pu.wav,pu.wav,0,14,14,14,,,,,26.18017933266698,test,001,2023-08-02_15h20.01.400,exposure_order_1,2022.2.5,None,
None,None,None,None,None,None,pi.wav,pi.wav,0,15,15,15,,,,,26.646501207669886,test,001,2023-08-02_15h20.01.400,exposure_order_1,2022.2.5,None,
None,None,None,None,None,None,tu.wav,tu.wav,0,16,16,16,,,,,27.11345795766853,test,001,2023-08-02_15h20.01.400,exposure_order_1,2022.2.5,None,
None,None,None,None,None,None,bi.wav,bi.wav,0,17,17,17,,,,,27.58016833266835,test,001,2023-08-02_15h20.01.400,exposure_order_1,2022.2.5,None,
None,None,None,None,None,None,ta.wav,ta.wav,0,18,18,18,,,,,28.0464729996677,test,001,2023-08-02_15h20.01.400,exposure_order_1,2022.2.5,None,
None,None,None,None,None,None,ti.wav,ti.wav,0,19,19,19,,,,,28.51358724966873,test,001,2023-08-02_15h20.01.400,exposure_order_1,2022.2.5,None,
None,None,None,None,None,None,du.wav,du.wav,0,20,20,20,,,,,28.980176791669024,test,001,2023-08-02_15h20.01.400,exposure_order_1,2022.2.5,None,
None,None,None,None,None,None,bu.wav,bu.wav,0,21,21,21,,,,,29.44666266666924,test,001,2023-08-02_15h20.01.400,exposure_order_1,2022.2.5,None,
None,None,None,None,None,None,pa.wav,pa.wav,0,22,22,22,,,,,29.912936832668734,test,001,2023-08-02_15h20.01.400,exposure_order_1,2022.2.5,None,
None,None,None,None,None,None,da.wav,da.wav,0,23,23,23,,,,,30.380198624669234,test,001,2023-08-02_15h20.01.400,exposure_order_1,2022.2.5,None,
None,None,None,None,None,None,bu.wav,pi.wav,0,24,24,24,,,,,30.84659920766741,test,001,2023-08-02_15h20.01.400,exposure_order_1,2022.2.5,None,
None,None,None,None,None,None,pa.wav,tu.wav,0,25,25,25,,,,,31.31366954166903,test,001,2023-08-02_15h20.01.400,exposure_order_1,2022.2.5,None,
None,None,None,None,None,None,da.wav,bi.wav,0,26,26,26,,,,,31.78017512467001,test,001,2023-08-02_15h20.01.400,exposure_order_1,2022.2.5,None,
None,None,None,None,None,None,pi.wav,ta.wav,0,27,27,27,,,,,32.246484832667434,test,001,2023-08-02_15h20.01.400,exposure_order_1,2022.2.5,None,
None,None,None,None,None,None,tu.wav,ti.wav,0,28,28,28,,,,,32.713565416667066,test,001,2023-08-02_15h20.01.400,exposure_order_1,2022.2.5,None,
None,None,None,None,None,None,bi.wav,du.wav,0,29,29,29,,,,,33.179823791666664,test,001,2023-08-02_15h20.01.400,exposure_order_1,2022.2.5,None,
None,None,None,None,None,None,di.wav,bu.wav,0,30,30,30,,,,,33.6467816666666,test,001,2023-08-02_15h20.01.400,exposure_order_1,2022.2.5,None,
None,None,None,None,None,None,ba.wav,pa.wav,0,31,31,31,,,,,34.1134270826699,test,001,2023-08-02_15h20.01.400,exposure_order_1,2022.2.5,None,
None,None,None,None,None,None,pu.wav,da.wav,0,32,32,32,,,,,34.580140624668516,test,001,2023-08-02_15h20.01.400,exposure_order_1,2022.2.5,None,
None,None,None,None,None,None,ta.wav,di.wav,0,33,33,33,,,,,35.04685520766749,test,001,2023-08-02_15h20.01.400,exposure_order_1,2022.2.5,None,
None,None,None,None,None,None,ti.wav,ba.wav,0,34,34,34,,,,,35.51366708266893,test,001,2023-08-02_15h20.01.400,exposure_order_1,2022.2.5,None,
None,None,None,None,None,None,du.wav,pu.wav,0,35,35,35,,,,,35.980038749669134,test,001,2023-08-02_15h20.01.400,exposure_order_1,2022.2.5,None,
None,None,None,None,None,None,ta.wav,pi.wav,0,36,36,36,,,,,36.4466673326681,test,001,2023-08-02_15h20.01.400,exposure_order_1,2022.2.5,None,
None,None,None,None,None,None,ti.wav,tu.wav,0,37,37,37,,,,,36.913517624667534,test,001,2023-08-02_15h20.01.400,exposure_order_1,2022.2.5,None,
None,None,None,None,None,None,du.wav,bi.wav,0,38,38,38,,,,,37.38026970766829,test,001,2023-08-02_15h20.01.400,exposure_order_1,2022.2.5,None,
None,None,None,None,None,None,pi.wav,di.wav,0,39,39,39,,,,,37.84665704166788,test,001,2023-08-02_15h20.01.400,exposure_order_1,2022.2.5,None,
None,None,None,None,None,None,tu.wav,ba.wav,0,40,40,40,,,,,38.31368304166996,test,001,2023-08-02_15h20.01.400,exposure_order_1,2022.2.5,None,
None,None,None,None,None,None,bi.wav,pu.wav,0,41,41,41,,,,,38.78020654166927,test,001,2023-08-02_15h20.01.400,exposure_order_1,2022.2.5,None,
None,None,None,None,None,None,bu.wav,ta.wav,0,42,42,42,,,,,39.246581749667044,test,001,2023-08-02_15h20.01.400,exposure_order_1,2022.2.5,None,
None,None,None,None,None,None,pa.wav,ti.wav,0,43,43,43,,,,,39.71339137466954,test,001,2023-08-02_15h20.01.400,exposure_order_1,2022.2.5,None,
None,None,None,None,None,None,da.wav,du.wav,0,44,44,44,,,,,40.18015379166924,test,001,2023-08-02_15h20.01.400,exposure_order_1,2022.2.5,None,
None,None,None,None,None,None,di.wav,bu.wav,0,45,45,45,,,,,40.646618874667425,test,001,2023-08-02_15h20.01.400,exposure_order_1,2022.2.5,None,
None,None,None,None,None,None,ba.wav,pa.wav,0,46,46,46,,,,,41.113384874668796,test,001,2023-08-02_15h20.01.400,exposure_order_1,2022.2.5,None,
None,None,None,None,None,None,pu.wav,da.wav,0,47,47,47,,,,,41.58033345766695,test,001,2023-08-02_15h20.01.400,exposure_order_1,2022.2.5,None,
None,None,None,None,None,None,pi.wav,bu.wav,0,48,48,48,,,,,42.0466304166696,test,001,2023-08-02_15h20.01.400,exposure_order_1,2022.2.5,None,
None,None,None,None,None,None,tu.wav,pa.wav,0,49,49,49,,,,,42.513692416669315,test,001,2023-08-02_15h20.01.400,exposure_order_1,2022.2.5,None,
None,None,None,None,None,None,bi.wav,da.wav,0,50,50,50,,,,,42.98013491666667,test,001,2023-08-02_15h20.01.400,exposure_order_1,2022.2.5,None,
None,None,None,None,None,None,ta.wav,ta.wav,0,51,51,51,,,,,43.44663479166799,test,001,2023-08-02_15h20.01.400,exposure_order_1,2022.2.5,None,
None,None,None,None,None,None,ti.wav,ti.wav,0,52,52,52,,,,,43.91375970766991,test,001,2023-08-02_15h20.01.400,exposure_order_1,2022.2.5,None,
None,None,None,None,None,None,du.wav,du.wav,0,53,53,53,,,,,44.38016491666737,test,001,2023-08-02_15h20.01.400,exposure_order_1,2022.2.5,None,
None,None,None,None,None,None,bu.wav,pi.wav,0,54,54,54,,,,,44.84660274966906,test,001,2023-08-02_15h20.01.400,exposure_order_1,2022.2.5,None,
None,None,None,None,None,None,pa.wav,tu.wav,0,55,55,55,,,,,45.31357491666883,test,001,2023-08-02_15h20.01.400,exposure_order_1,2022.2.5,None,
None,None,None,None,None,None,da.wav,bi.wav,0,56,56,56,,,,,45.78029716666812,test,001,2023-08-02_15h20.01.400,exposure_order_1,2022.2.5,None,
None,None,None,None,None,None,di.wav,di.wav,0,57,57,57,,,,,46.24670895766782,test,001,2023-08-02_15h20.01.400,exposure_order_1,2022.2.5,None,
None,None,None,None,None,None,ba.wav,ba.wav,0,58,58,58,,,,,46.71350116666896,test,001,2023-08-02_15h20.01.400,exposure_order_1,2022.2.5,None,
None,None,None,None,None,None,pu.wav,pu.wav,0,59,59,59,,,,,47.18033258266975,test,001,2023-08-02_15h20.01.400,exposure_order_1,2022.2.5,None,
None,None,None,None,None,None,ta.wav,pi.wav,0,60,60,60,,,,,47.64675879166704,test,001,2023-08-02_15h20.01.400,exposure_order_1,2022.2.5,None,
None,None,None,None,None,None,ti.wav,tu.wav,0,61,61,61,,,,,48.113368541668265,test,001,2023-08-02_15h20.01.400,exposure_order_1,2022.2.5,None,
None,None,None,None,None,None,du.wav,bi.wav,0,62,62,62,,,,,48.58034229166903,test,001,2023-08-02_15h20.01.400,exposure_order_1,2022.2.5,None,
None,None,None,None,None,None,pi.wav,ta.wav,0,63,63,63,,,,,49.046648707666705,test,001,2023-08-02_15h20.01.400,exposure_order_1,2022.2.5,None,
None,None,None,None,None,None,tu.wav,ti.wav,0,64,64,64,,,,,49.513558624669045,test,001,2023-08-02_15h20.01.400,exposure_order_1,2022.2.5,None,
None,None,None,None,None,None,bi.wav,du.wav,0,65,65,65,,,,,49.98025041666939,test,001,2023-08-02_15h20.01.400,exposure_order_1,2022.2.5,None,
None,None,None,None,None,None,bu.wav,di.wav,0,66,66,66,,,,,50.44688304166654,test,001,2023-08-02_15h20.01.400,exposure_order_1,2022.2.5,None,
None,None,None,None,None,None,pa.wav,ba.wav,0,67,67,67,,,,,50.913396999669445,test,001,2023-08-02_15h20.01.400,exposure_order_1,2022.2.5,None,
None,None,None,None,None,None,da.wav,pu.wav,0,68,68,68,,,,,51.38011704166662,test,001,2023-08-02_15h20.01.400,exposure_order_1,2022.2.5,None,
None,None,None,None,None,None,di.wav,bu.wav,0,69,69,69,,,,,51.84683145766782,test,001,2023-08-02_15h20.01.400,exposure_order_1,2022.2.5,None,
None,None,None,None,None,None,ba.wav,pa.wav,0,70,70,70,,,,,52.31358449966889,test,001,2023-08-02_15h20.01.400,exposure_order_1,2022.2.5,None,
None,None,None,None,None,None,pu.wav,da.wav,0,71,71,71,,,,,52.78039849966832,test,001,2023-08-02_15h20.01.400,exposure_order_1,2022.2.5,None,
None,None,None,None,None,None,pi.wav,pi.wav,0,72,72,72,,,,,53.24670691666712,test,001,2023-08-02_15h20.01.400,exposure_order_1,2022.2.5,None,
None,None,None,None,None,None,tu.wav,tu.wav,0,73,73,73,,,,,53.71345520766796,test,001,2023-08-02_15h20.01.400,exposure_order_1,2022.2.5,None,
None,None,None,None,None,None,bi.wav,bi.wav,0,74,74,74,,,,,54.18026795766879,test,001,2023-08-02_15h20.01.400,exposure_order_1,2022.2.5,None,
None,None,None,None,None,None,di.wav,bu.wav,0,75,75,75,,,,,54.64692004166888,test,001,2023-08-02_15h20.01.400,exposure_order_1,2022.2.5,None,
None,None,None,None,None,None,ba.wav,pa.wav,0,76,76,76,,,,,55.11368879166936,test,001,2023-08-02_15h20.01.400,exposure_order_1,2022.2.5,None,
None,None,None,None,None,None,pu.wav,da.wav,0,77,77,77,,,,,55.58019345766685,test,001,2023-08-02_15h20.01.400,exposure_order_1,2022.2.5,None,
None,None,None,None,None,None,ta.wav,ta.wav,0,78,78,78,,,,,56.046998666668756,test,001,2023-08-02_15h20.01.400,exposure_order_1,2022.2.5,None,
None,None,None,None,None,None,ti.wav,ti.wav,0,79,79,79,,,,,56.51364879166819,test,001,2023-08-02_15h20.01.400,exposure_order_1,2022.2.5,None,
None,None,None,None,None,None,du.wav,du.wav,0,80,80,80,,,,,56.98010412466853,test,001,2023-08-02_15h20.01.400,exposure_order_1,2022.2.5,None,
None,None,None,None,None,None,bu.wav,di.wav,0,81,81,81,,,,,57.44683729166742,test,001,2023-08-02_15h20.01.400,exposure_order_1,2022.2.5,None,
None,None,None,None,None,None,pa.wav,ba.wav,0,82,82,82,,,,,57.91351679166861,test,001,2023-08-02_15h20.01.400,exposure_order_1,2022.2.5,None,
None,None,None,None,None,None,da.wav,pu.wav,0,83,83,83,,,,,58.38047249967009,test,001,2023-08-02_15h20.01.400,exposure_order_1,2022.2.5,None,
None,None,None,None,None,None,ta.wav,ta.wav,0,84,84,84,,,,,58.84670808266698,test,001,2023-08-02_15h20.01.400,exposure_order_1,2022.2.5,None,
None,None,None,None,None,None,ti.wav,ti.wav,0,85,85,85,,,,,59.31363529166653,test,001,2023-08-02_15h20.01.400,exposure_order_1,2022.2.5,None,
None,None,None,None,None,None,du.wav,du.wav,0,86,86,86,,,,,59.78011870766956,test,001,2023-08-02_15h20.01.400,exposure_order_1,2022.2.5,None,
None,None,None,None,None,None,pi.wav,pi.wav,0,87,87,87,,,,,60.24662899966667,test,001,2023-08-02_15h20.01.400,exposure_order_1,2022.2.5,None,
None,None,None,None,None,None,tu.wav,tu.wav,0,88,88,88,,,,,60.71382204166754,test,001,2023-08-02_15h20.01.400,exposure_order_1,2022.2.5,None,
None,None,None,None,None,None,bi.wav,bi.wav,0,89,89,89,,,,,61.180087166667604,test,001,2023-08-02_15h20.01.400,exposure_order_1,2022.2.5,None,
None,None,None,None,None,None,di.wav,bu.wav,0,90,90,90,,,,,61.646743374669555,test,001,2023-08-02_15h20.01.400,exposure_order_1,2022.2.5,None,
None,None,None,None,None,None,ba.wav,pa.wav,0,91,91,91,,,,,62.11377670766912,test,001,2023-08-02_15h20.01.400,exposure_order_1,2022.2.5,None,
None,None,None,None,None,None,pu.wav,da.wav,0,92,92,92,,,,,62.58040312467007,test,001,2023-08-02_15h20.01.400,exposure_order_1,2022.2.5,None,
None,None,None,None,None,None,bu.wav,di.wav,0,93,93,93,,,,,63.04669937466703,test,001,2023-08-02_15h20.01.400,exposure_order_1,2022.2.5,None,
None,None,None,None,None,None,pa.wav,ba.wav,0,94,94,94,,,,,63.513700832667624,test,001,2023-08-02_15h20.01.400,exposure_order_1,2022.2.5,None,
None,None,None,None,None,None,da.wav,pu.wav,0,95,95,95,,,,,63.98018616666765,test,001,2023-08-02_15h20.01.400,exposure_order_1,2022.2.5,None,
None,None,None,None,None,None,di.wav,pi.wav,0,96,96,96,,,,,64.44710220766889,test,001,2023-08-02_15h20.01.400,exposure_order_1,2022.2.5,None,
None,None,None,None,None,None,ba.wav,tu.wav,0,97,97,97,,,,,64.91370791666874,test,001,2023-08-02_15h20.01.400,exposure_order_1,2022.2.5,None,
None,None,None,None,None,None,pu.wav,bi.wav,0,98,98,98,,,,,65.38055237466712,test,001,2023-08-02_15h20.01.400,exposure_order_1,2022.2.5,None,
None,None,None,None,None,None,pi.wav,bu.wav,0,99,99,99,,,,,65.84650920766968,test,001,2023-08-02_15h20.01.400,exposure_order_1,2022.2.5,None,
None,None,None,None,None,None,tu.wav,pa.wav,0,100,100,100,,,,,66.31349024966791,test,001,2023-08-02_15h20.01.400,exposure_order_1,2022.2.5,None,
None,None,None,None,None,None,bi.wav,da.wav,0,101,101,101,,,,,66.780498291668,test,001,2023-08-02_15h20.01.400,exposure_order_1,2022.2.5,None,
None,None,None,None,None,None,bu.wav,di.wav,0,102,102,102,,,,,67.24683424966885,test,001,2023-08-02_15h20.01.400,exposure_order_1,2022.2.5,None,
None,None,None,None,None,None,pa.wav,ba.wav,0,103,103,103,,,,,67.71382120766818,test,001,2023-08-02_15h20.01.400,exposure_order_1,2022.2.5,None,
None,None,None,None,None,None,da.wav,pu.wav,0,104,104,104,,,,,68.18013099966653,test,001,2023-08-02_15h20.01.400,exposure_order_1,2022.2.5,None,
None,None,None,None,None,None,ta.wav,ta.wav,0,105,105,105,,,,,68.64690437466949,test,001,2023-08-02_15h20.01.400,exposure_order_1,2022.2.5,None,
None,None,None,None,None,None,ti.wav,ti.wav,0,106,106,106,,,,,69.11385583266771,test,001,2023-08-02_15h20.01.400,exposure_order_1,2022.2.5,None,
None,None,None,None,None,None,du.wav,du.wav,0,107,107,107,,,,,69.5804984996687,test,001,2023-08-02_15h20.01.400,exposure_order_1,2022.2.5,None,
None,None,None,None,None,None,ta.wav,bu.wav,0,108,108,108,,,,,70.04691162466794,test,001,2023-08-02_15h20.01.400,exposure_order_1,2022.2.5,None,
None,None,None,None,None,None,ti.wav,pa.wav,0,109,109,109,,,,,70.51351533266667,test,001,2023-08-02_15h20.01.400,exposure_order_1,2022.2.5,None,
None,None,None,None,None,None,du.wav,da.wav,0,110,110,110,,,,,70.98058583266926,test,001,2023-08-02_15h20.01.400,exposure_order_1,2022.2.5,None,
None,None,None,None,None,None,pi.wav,di.wav,0,111,111,111,,,,,71.44701754166842,test,001,2023-08-02_15h20.01.400,exposure_order_1,2022.2.5,None,
None,None,None,None,None,None,tu.wav,ba.wav,0,112,112,112,,,,,71.9139236666672,test,001,2023-08-02_15h20.01.400,exposure_order_1,2022.2.5,None,
None,None,None,None,None,None,bi.wav,pu.wav,0,113,113,113,,,,,72.38040587466845,test,001,2023-08-02_15h20.01.400,exposure_order_1,2022.2.5,None,
None,None,None,None,None,None,bu.wav,ta.wav,0,114,114,114,,,,,72.84696724966877,test,001,2023-08-02_15h20.01.400,exposure_order_1,2022.2.5,None,
None,None,None,None,None,None,pa.wav,ti.wav,0,115,115,115,,,,,73.31382570766824,test,001,2023-08-02_15h20.01.400,exposure_order_1,2022.2.5,None,
None,None,None,None,None,None,da.wav,du.wav,0,116,116,116,,,,,73.78031466666677,test,001,2023-08-02_15h20.01.400,exposure_order_1,2022.2.5,None,
None,None,None,None,None,None,di.wav,pi.wav,0,117,117,117,,,,,74.24682512466849,test,001,2023-08-02_15h20.01.400,exposure_order_1,2022.2.5,None,
None,None,None,None,None,None,ba.wav,tu.wav,0,118,118,118,,,,,74.71374783266971,test,001,2023-08-02_15h20.01.400,exposure_order_1,2022.2.5,None,
None,None,None,None,None,None,pu.wav,bi.wav,0,119,119,119,,,,,75.1803837496666,test,001,2023-08-02_15h20.01.400,exposure_order_1,2022.2.5,None,
None,None,None,None,None,None,pi.wav,ta.wav,0,120,120,120,,,,,75.64696687466882,test,001,2023-08-02_15h20.01.400,exposure_order_1,2022.2.5,None,
None,None,None,None,None,None,tu.wav,ti.wav,0,121,121,121,,,,,76.11392799966804,test,001,2023-08-02_15h20.01.400,exposure_order_1,2022.2.5,None,
None,None,None,None,None,None,bi.wav,du.wav,0,122,122,122,,,,,76.58049645766756,test,001,2023-08-02_15h20.01.400,exposure_order_1,2022.2.5,None,
None,None,None,None,None,None,di.wav,pi.wav,0,123,123,123,,,,,77.04680112466691,test,001,2023-08-02_15h20.01.400,exposure_order_1,2022.2.5,None,
None,None,None,None,None,None,ba.wav,tu.wav,0,124,124,124,,,,,77.51378533266713,test,001,2023-08-02_15h20.01.400,exposure_order_1,2022.2.5,None,
None,None,None,None,None,None,pu.wav,bi.wav,0,125,125,125,,,,,77.98045962466882,test,001,2023-08-02_15h20.01.400,exposure_order_1,2022.2.5,None,
None,None,None,None,None,None,bu.wav,bu.wav,0,126,126,126,,,,,78.44683220766844,test,001,2023-08-02_15h20.01.400,exposure_order_1,2022.2.5,None,
None,None,None,None,None,None,pa.wav,pa.wav,0,127,127,127,,,,,78.91344129166852,test,001,2023-08-02_15h20.01.400,exposure_order_1,2022.2.5,None,
None,None,None,None,None,None,da.wav,da.wav,0,128,128,128,,,,,79.38021224966748,test,001,2023-08-02_15h20.01.400,exposure_order_1,2022.2.5,None,
None,None,None,None,None,None,ta.wav,di.wav,0,129,129,129,,,,,79.84686570766668,test,001,2023-08-02_15h20.01.400,exposure_order_1,2022.2.5,None,
None,None,None,None,None,None,ti.wav,ba.wav,0,130,130,130,,,,,80.31380887466754,test,001,2023-08-02_15h20.01.400,exposure_order_1,2022.2.5,None,
None,None,None,None,None,None,du.wav,pu.wav,0,131,131,131,,,,,80.78044512466683,test,001,2023-08-02_15h20.01.400,exposure_order_1,2022.2.5,None,
None,None,None,None,None,None,ta.wav,bu.wav,0,132,132,132,,,,,81.24688345766869,test,001,2023-08-02_15h20.01.400,exposure_order_1,2022.2.5,None,
None,None,None,None,None,None,ti.wav,pa.wav,0,133,133,133,,,,,81.71383499966784,test,001,2023-08-02_15h20.01.400,exposure_order_1,2022.2.5,None,
None,None,None,None,None,None,du.wav,da.wav,0,134,134,134,,,,,82.18046570766843,test,001,2023-08-02_15h20.01.400,exposure_order_1,2022.2.5,None,
None,None,None,None,None,None,bu.wav,ta.wav,0,135,135,135,,,,,82.64690133266801,test,001,2023-08-02_15h20.01.400,exposure_order_1,2022.2.5,None,
None,None,None,None,None,None,pa.wav,ti.wav,0,136,136,136,,,,,83.11370599966928,test,001,2023-08-02_15h20.01.400,exposure_order_1,2022.2.5,None,
None,None,None,None,None,None,da.wav,du.wav,0,137,137,137,,,,,83.58031933266854,test,001,2023-08-02_15h20.01.400,exposure_order_1,2022.2.5,None,
None,None,None,None,None,None,di.wav,di.wav,0,138,138,138,,,,,84.04734966666753,test,001,2023-08-02_15h20.01.400,exposure_order_1,2022.2.5,None,
None,None,None,None,None,None,ba.wav,ba.wav,0,139,139,139,,,,,84.51410412466818,test,001,2023-08-02_15h20.01.400,exposure_order_1,2022.2.5,None,
None,None,None,None,None,None,pu.wav,pu.wav,0,140,140,140,,,,,84.98082254166754,test,001,2023-08-02_15h20.01.400,exposure_order_1,2022.2.5,None,
None,None,None,None,None,None,pi.wav,pi.wav,0,141,141,141,,,,,85.44756037466892,test,001,2023-08-02_15h20.01.400,exposure_order_1,2022.2.5,None,
None,None,None,None,None,None,tu.wav,tu.wav,0,142,142,142,,,,,85.91414899966937,test,001,2023-08-02_15h20.01.400,exposure_order_1,2022.2.5,None,
None,None,None,None,None,None,bi.wav,bi.wav,0,143,143,143,,,,,86.38069899966673,test,001,2023-08-02_15h20.01.400,exposure_order_1,2022.2.5,None,
None,None,None,None,None,None,pi.wav,bu.wav,0,144,144,144,,,,,86.84745145766671,test,001,2023-08-02_15h20.01.400,exposure_order_1,2022.2.5,None,
None,None,None,None,None,None,tu.wav,pa.wav,0,145,145,145,,,,,87.31440683266943,test,001,2023-08-02_15h20.01.400,exposure_order_1,2022.2.5,None,
None,None,None,None,None,None,bi.wav,da.wav,0,146,146,146,,,,,87.78064054166704,test,001,2023-08-02_15h20.01.400,exposure_order_1,2022.2.5,None,
None,None,None,None,None,None,di.wav,di.wav,0,147,147,147,,,,,88.24757366666769,test,001,2023-08-02_15h20.01.400,exposure_order_1,2022.2.5,None,
None,None,None,None,None,None,ba.wav,ba.wav,0,148,148,148,,,,,88.71402662466814,test,001,2023-08-02_15h20.01.400,exposure_order_1,2022.2.5,None,
None,None,None,None,None,None,pu.wav,pu.wav,0,149,149,149,,,,,89.18069804166977,test,001,2023-08-02_15h20.01.400,exposure_order_1,2022.2.5,None,
None,None,None,None,None,None,ta.wav,ta.wav,0,150,150,150,,,,,89.64715108266707,test,001,2023-08-02_15h20.01.400,exposure_order_1,2022.2.5,None,
None,None,None,None,None,None,ti.wav,ti.wav,0,151,151,151,,,,,90.11390570766913,test,001,2023-08-02_15h20.01.400,exposure_order_1,2022.2.5,None,
None,None,None,None,None,None,du.wav,du.wav,0,152,152,152,,,,,90.58084899966731,test,001,2023-08-02_15h20.01.400,exposure_order_1,2022.2.5,None,
None,None,None,None,None,None,bu.wav,pi.wav,0,153,153,153,,,,,91.04724712466874,test,001,2023-08-02_15h20.01.400,exposure_order_1,2022.2.5,None,
None,None,None,None,None,None,pa.wav,tu.wav,0,154,154,154,,,,,91.51366016666749,test,001,2023-08-02_15h20.01.400,exposure_order_1,2022.2.5,None,
None,None,None,None,None,None,da.wav,bi.wav,0,155,155,155,,,,,91.9803477916687,test,001,2023-08-02_15h20.01.400,exposure_order_1,2022.2.5,None,
None,None,None,None,None,None,pi.wav,di.wav,0,156,156,156,,,,,92.44701316666784,test,001,2023-08-02_15h20.01.400,exposure_order_1,2022.2.5,None,
None,None,None,None,None,None,tu.wav,ba.wav,0,157,157,157,,,,,92.91383708266973,test,001,2023-08-02_15h20.01.400,exposure_order_1,2022.2.5,None,
None,None,None,None,None,None,bi.wav,pu.wav,0,158,158,158,,,,,93.38037849966737,test,001,2023-08-02_15h20.01.400,exposure_order_1,2022.2.5,None,
None,None,None,None,None,None,ta.wav,bu.wav,0,159,159,159,,,,,93.84726345766855,test,001,2023-08-02_15h20.01.400,exposure_order_1,2022.2.5,None,
None,None,None,None,None,None,ti.wav,pa.wav,0,160,160,160,,,,,94.31398483266845,test,001,2023-08-02_15h20.01.400,exposure_order_1,2022.2.5,None,
None,None,None,None,None,None,du.wav,da.wav,0,161,161,161,,,,,94.78356712466872,test,001,2023-08-02_15h20.01.400,exposure_order_1,2022.2.5,None,
None,None,None,None,None,None,di.wav,pi.wav,0,162,162,162,,,,,95.24885874966664,test,001,2023-08-02_15h20.01.400,exposure_order_1,2022.2.5,None,
None,None,None,None,None,None,ba.wav,tu.wav,0,163,163,163,,,,,95.71571908266948,test,001,2023-08-02_15h20.01.400,exposure_order_1,2022.2.5,None,
None,None,None,None,None,None,pu.wav,bi.wav,0,164,164,164,,,,,96.18243566666958,test,001,2023-08-02_15h20.01.400,exposure_order_1,2022.2.5,None,
None,None,None,None,None,None,bu.wav,ta.wav,0,165,165,165,,,,,96.64875599966787,test,001,2023-08-02_15h20.01.400,exposure_order_1,2022.2.5,None,
None,None,None,None,None,None,pa.wav,ti.wav,0,166,166,166,,,,,97.11568154166913,test,001,2023-08-02_15h20.01.400,exposure_order_1,2022.2.5,None,
None,None,None,None,None,None,da.wav,du.wav,0,167,167,167,,,,,97.58202137466675,test,001,2023-08-02_15h20.01.400,exposure_order_1,2022.2.5,None,
None,None,None,None,None,None,bu.wav,bu.wav,0,168,168,168,,,,,98.0492747496685,test,001,2023-08-02_15h20.01.400,exposure_order_1,2022.2.5,None,
None,None,None,None,None,None,pa.wav,pa.wav,0,169,169,169,,,,,98.51549854166684,test,001,2023-08-02_15h20.01.400,exposure_order_1,2022.2.5,None,
None,None,None,None,None,None,da.wav,da.wav,0,170,170,170,,,,,98.98224545766813,test,001,2023-08-02_15h20.01.400,exposure_order_1,2022.2.5,None,
None,None,None,None,None,None,di.wav,pi.wav,0,171,171,171,,,,,99.44916820766981,test,001,2023-08-02_15h20.01.400,exposure_order_1,2022.2.5,None,
None,None,None,None,None,None,ba.wav,tu.wav,0,172,172,172,,,,,99.9148310826679,test,001,2023-08-02_15h20.01.400,exposure_order_1,2022.2.5,None,
None,None,None,None,None,None,pu.wav,bi.wav,0,173,173,173,,,,,100.38216266666883,test,001,2023-08-02_15h20.01.400,exposure_order_1,2022.2.5,None,
None,None,None,None,None,None,pi.wav,ta.wav,0,174,174,174,,,,,100.84962862466661,test,001,2023-08-02_15h20.01.400,exposure_order_1,2022.2.5,None,
None,None,None,None,None,None,tu.wav,ti.wav,0,175,175,175,,,,,101.3163179996666,test,001,2023-08-02_15h20.01.400,exposure_order_1,2022.2.5,None,
None,None,None,None,None,None,bi.wav,du.wav,0,176,176,176,,,,,101.78307116666862,test,001,2023-08-02_15h20.01.400,exposure_order_1,2022.2.5,None,
None,None,None,None,None,None,ta.wav,di.wav,0,177,177,177,,,,,102.24897816666659,test,001,2023-08-02_15h20.01.400,exposure_order_1,2022.2.5,None,
None,None,None,None,None,None,ti.wav,ba.wav,0,178,178,178,,,,,102.71627362466849,test,001,2023-08-02_15h20.01.400,exposure_order_1,2022.2.5,None,
None,None,None,None,None,None,du.wav,pu.wav,0,179,179,179,,,,,103.18301162466766,test,001,2023-08-02_15h20.01.400,exposure_order_1,2022.2.5,None,
None,None,None,None,None,None,bu.wav,bu.wav,0,180,180,180,,,,,103.6492329166688,test,001,2023-08-02_15h20.01.400,exposure_order_1,2022.2.5,None,
None,None,None,None,None,None,pa.wav,pa.wav,0,181,181,181,,,,,104.11598004166832,test,001,2023-08-02_15h20.01.400,exposure_order_1,2022.2.5,None,
None,None,None,None,None,None,da.wav,da.wav,0,182,182,182,,,,,104.58248337466672,test,001,2023-08-02_15h20.01.400,exposure_order_1,2022.2.5,None,
None,None,None,None,None,None,pi.wav,ta.wav,0,183,183,183,,,,,105.04937929166796,test,001,2023-08-02_15h20.01.400,exposure_order_1,2022.2.5,None,
None,None,None,None,None,None,tu.wav,ti.wav,0,184,184,184,,,,,105.51592237466708,test,001,2023-08-02_15h20.01.400,exposure_order_1,2022.2.5,None,
None,None,None,None,None,None,bi.wav,du.wav,0,185,185,185,,,,,105.9830424996692,test,001,2023-08-02_15h20.01.400,exposure_order_1,2022.2.5,None,
None,None,None,None,None,None,di.wav,pi.wav,0,186,186,186,,,,,106.44911491666814,test,001,2023-08-02_15h20.01.400,exposure_order_1,2022.2.5,None,
None,None,None,None,None,None,ba.wav,tu.wav,0,187,187,187,,,,,106.91593349966958,test,001,2023-08-02_15h20.01.400,exposure_order_1,2022.2.5,None,
None,None,None,None,None,None,pu.wav,bi.wav,0,188,188,188,,,,,107.38278058266975,test,001,2023-08-02_15h20.01.400,exposure_order_1,2022.2.5,None,
None,None,None,None,None,None,ta.wav,di.wav,0,189,189,189,,,,,107.84917516666998,test,001,2023-08-02_15h20.01.400,exposure_order_1,2022.2.5,None,
None,None,None,None,None,None,ti.wav,ba.wav,0,190,190,190,,,,,108.31620791666889,test,001,2023-08-02_15h20.01.400,exposure_order_1,2022.2.5,None,
None,None,None,None,None,None,du.wav,pu.wav,0,191,191,191,,,,,108.78274574966805,test,001,2023-08-02_15h20.01.400,exposure_order_1,2022.2.5,None,
None,None,None,None,None,None,ta.wav,bu.wav,0,192,192,192,,,,,109.2492967496694,test,001,2023-08-02_15h20.01.400,exposure_order_1,2022.2.5,None,
None,None,None,None,None,None,ti.wav,pa.wav,0,193,193,193,,,,,109.71601995766856,test,001,2023-08-02_15h20.01.400,exposure_order_1,2022.2.5,None,
None,None,None,None,None,None,du.wav,da.wav,0,194,194,194,,,,,110.18278554166706,test,001,2023-08-02_15h20.01.400,exposure_order_1,2022.2.5,None,
None,None,None,None,None,None,di.wav,di.wav,0,195,195,195,,,,,110.65004699966836,test,001,2023-08-02_15h20.01.400,exposure_order_1,2022.2.5,None,
None,None,None,None,None,None,ba.wav,ba.wav,0,196,196,196,,,,,111.11600358266902,test,001,2023-08-02_15h20.01.400,exposure_order_1,2022.2.5,None,
None,None,None,None,None,None,pu.wav,pu.wav,0,197,197,197,,,,,111.58258445766866,test,001,2023-08-02_15h20.01.400,exposure_order_1,2022.2.5,None,
None,None,None,None,None,None,bu.wav,ta.wav,0,198,198,198,,,,,112.04896445766668,test,001,2023-08-02_15h20.01.400,exposure_order_1,2022.2.5,None,
None,None,None,None,None,None,pa.wav,ti.wav,0,199,199,199,,,,,112.51604233266723,test,001,2023-08-02_15h20.01.400,exposure_order_1,2022.2.5,None,
None,None,None,None,None,None,da.wav,du.wav,0,200,200,200,,,,,112.9829615416677,test,001,2023-08-02_15h20.01.400,exposure_order_1,2022.2.5,None,
None,None,None,None,None,None,pi.wav,pi.wav,0,201,201,201,,,,,113.44937279166722,test,001,2023-08-02_15h20.01.400,exposure_order_1,2022.2.5,None,
None,None,None,None,None,None,tu.wav,tu.wav,0,202,202,202,,,,,113.91585054166741,test,001,2023-08-02_15h20.01.400,exposure_order_1,2022.2.5,None,
None,None,None,None,None,None,bi.wav,bi.wav,0,203,203,203,,,,,114.38280299966961,test,001,2023-08-02_15h20.01.400,exposure_order_1,2022.2.5,None,
None,None,None,None,None,None,ta.wav,ta.wav,0,204,204,204,,,,,114.84908695766741,test,001,2023-08-02_15h20.01.400,exposure_order_1,2022.2.5,None,
None,None,None,None,None,None,ti.wav,ti.wav,0,205,205,205,,,,,115.31570524966834,test,001,2023-08-02_15h20.01.400,exposure_order_1,2022.2.5,None,
None,None,None,None,None,None,du.wav,du.wav,0,206,206,206,,,,,115.78269849966843,test,001,2023-08-02_15h20.01.400,exposure_order_1,2022.2.5,None,
None,None,None,None,None,None,di.wav,di.wav,0,207,207,207,,,,,116.24932908266807,test,001,2023-08-02_15h20.01.400,exposure_order_1,2022.2.5,None,
None,None,None,None,None,None,ba.wav,ba.wav,0,208,208,208,,,,,116.71597224966924,test,001,2023-08-02_15h20.01.400,exposure_order_1,2022.2.5,None,
None,None,None,None,None,None,pu.wav,pu.wav,0,209,209,209,,,,,117.18250066666975,test,001,2023-08-02_15h20.01.400,exposure_order_1,2022.2.5,None,
None,None,None,None,None,None,pi.wav,pi.wav,0,210,210,210,,,,,117.64901345766727,test,001,2023-08-02_15h20.01.400,exposure_order_1,2022.2.5,None,
None,None,None,None,None,None,tu.wav,tu.wav,0,211,211,211,,,,,118.11612495766919,test,001,2023-08-02_15h20.01.400,exposure_order_1,2022.2.5,None,
None,None,None,None,None,None,bi.wav,bi.wav,0,212,212,212,,,,,118.58257308266936,test,001,2023-08-02_15h20.01.400,exposure_order_1,2022.2.5,None,
None,None,None,None,None,None,bu.wav,bu.wav,0,213,213,213,,,,,119.0490958326666,test,001,2023-08-02_15h20.01.400,exposure_order_1,2022.2.5,None,
None,None,None,None,None,None,pa.wav,pa.wav,0,214,214,214,,,,,119.51575491666905,test,001,2023-08-02_15h20.01.400,exposure_order_1,2022.2.5,None,
None,None,None,None,None,None,da.wav,da.wav,0,215,215,215,,,,,119.98274416666779,test,001,2023-08-02_15h20.01.400,exposure_order_1,2022.2.5,None,
None,None,None,None,None,None,ta.wav,bu.wav,0,216,216,216,,,,,120.44897633266761,test,001,2023-08-02_15h20.01.400,exposure_order_1,2022.2.5,None,
None,None,None,None,None,None,ti.wav,pa.wav,0,217,217,217,,,,,120.9161142496671,test,001,2023-08-02_15h20.01.400,exposure_order_1,2022.2.5,None,
None,None,None,None,None,None,du.wav,da.wav,0,218,218,218,,,,,121.38286337466731,test,001,2023-08-02_15h20.01.400,exposure_order_1,2022.2.5,None,
None,None,None,None,None,None,bu.wav,ta.wav,0,219,219,219,,,,,121.84902374967011,test,001,2023-08-02_15h20.01.400,exposure_order_1,2022.2.5,None,
None,None,None,None,None,None,pa.wav,ti.wav,0,220,220,220,,,,,122.3161416666701,test,001,2023-08-02_15h20.01.400,exposure_order_1,2022.2.5,None,
None,None,None,None,None,None,da.wav,du.wav,0,221,221,221,,,,,122.78282587466698,test,001,2023-08-02_15h20.01.400,exposure_order_1,2022.2.5,None,
None,None,None,None,None,None,pi.wav,di.wav,0,222,222,222,,,,,123.24905512466673,test,001,2023-08-02_15h20.01.400,exposure_order_1,2022.2.5,None,
None,None,None,None,None,None,tu.wav,ba.wav,0,223,223,223,,,,,123.71620899966753,test,001,2023-08-02_15h20.01.400,exposure_order_1,2022.2.5,None,
None,None,None,None,None,None,bi.wav,pu.wav,0,224,224,224,,,,,124.18034216666662,test,001,2023-08-02_15h20.01.400,exposure_order_1,2022.2.5,None,
None,None,None,None,None,None,di.wav,pi.wav,0,225,225,225,,,,,124.64696287466747,test,001,2023-08-02_15h20.01.400,exposure_order_1,2022.2.5,None,
None,None,None,None,None,None,ba.wav,tu.wav,0,226,226,226,,,,,125.11401370766932,test,001,2023-08-02_15h20.01.400,exposure_order_1,2022.2.5,None,
None,None,None,None,None,None,pu.wav,bi.wav,0,227,227,227,,,,,125.58052895766765,test,001,2023-08-02_15h20.01.400,exposure_order_1,2022.2.5,None,
None,None,None,None,None,None,ta.wav,bu.wav,0,228,228,228,,,,,126.04712333266822,test,001,2023-08-02_15h20.01.400,exposure_order_1,2022.2.5,None,
None,None,None,None,None,None,ti.wav,pa.wav,0,229,229,229,,,,,126.51405704166997,test,001,2023-08-02_15h20.01.400,exposure_order_1,2022.2.5,None,
None,None,None,None,None,None,du.wav,da.wav,0,230,230,230,,,,,126.98037504166884,test,001,2023-08-02_15h20.01.400,exposure_order_1,2022.2.5,None,
None,None,None,None,None,None,di.wav,pi.wav,0,231,231,231,,,,,127.4471689996683,test,001,2023-08-02_15h20.01.400,exposure_order_1,2022.2.5,None,
None,None,None,None,None,None,ba.wav,tu.wav,0,232,232,232,,,,,127.91394529166816,test,001,2023-08-02_15h20.01.400,exposure_order_1,2022.2.5,None,
None,None,None,None,None,None,pu.wav,bi.wav,0,233,233,233,,,,,128.38067349966903,test,001,2023-08-02_15h20.01.400,exposure_order_1,2022.2.5,None,
None,None,None,None,None,None,pi.wav,ta.wav,0,234,234,234,,,,,128.8473826246666,test,001,2023-08-02_15h20.01.400,exposure_order_1,2022.2.5,None,
None,None,None,None,None,None,tu.wav,ti.wav,0,235,235,235,,,,,129.31388191666727,test,001,2023-08-02_15h20.01.400,exposure_order_1,2022.2.5,None,
None,None,None,None,None,None,bi.wav,du.wav,0,236,236,236,,,,,129.7804674576694,test,001,2023-08-02_15h20.01.400,exposure_order_1,2022.2.5,None,
None,None,None,None,None,None,bu.wav,di.wav,0,237,237,237,,,,,130.24691608266974,test,001,2023-08-02_15h20.01.400,exposure_order_1,2022.2.5,None,
None,None,None,None,None,None,pa.wav,ba.wav,0,238,238,238,,,,,130.71401562466806,test,001,2023-08-02_15h20.01.400,exposure_order_1,2022.2.5,None,
None,None,None,None,None,None,da.wav,pu.wav,0,239,239,239,,,,,131.18074524966895,test,001,2023-08-02_15h20.01.400,exposure_order_1,2022.2.5,None,
None,None,None,None,None,None,di.wav,di.wav,0,240,240,240,,,,,131.64720704166783,test,001,2023-08-02_15h20.01.400,exposure_order_1,2022.2.5,None,
None,None,None,None,None,None,ba.wav,ba.wav,0,241,241,241,,,,,132.11364220766725,test,001,2023-08-02_15h20.01.400,exposure_order_1,2022.2.5,None,
None,None,None,None,None,None,pu.wav,pu.wav,0,242,242,242,,,,,132.58062541666757,test,001,2023-08-02_15h20.01.400,exposure_order_1,2022.2.5,None,
None,None,None,None,None,None,bu.wav,pi.wav,0,243,243,243,,,,,133.04693779166726,test,001,2023-08-02_15h20.01.400,exposure_order_1,2022.2.5,None,
None,None,None,None,None,None,pa.wav,tu.wav,0,244,244,244,,,,,133.5138431666676,test,001,2023-08-02_15h20.01.400,exposure_order_1,2022.2.5,None,
None,None,None,None,None,None,da.wav,bi.wav,0,245,245,245,,,,,133.98063266666966,test,001,2023-08-02_15h20.01.400,exposure_order_1,2022.2.5,None,
None,None,None,None,None,None,pi.wav,ta.wav,0,246,246,246,,,,,134.44693687466886,test,001,2023-08-02_15h20.01.400,exposure_order_1,2022.2.5,None,
None,None,None,None,None,None,tu.wav,ti.wav,0,247,247,247,,,,,134.9136841666698,test,001,2023-08-02_15h20.01.400,exposure_order_1,2022.2.5,None,
None,None,None,None,None,None,bi.wav,du.wav,0,248,248,248,,,,,135.38047924966693,test,001,2023-08-02_15h20.01.400,exposure_order_1,2022.2.5,None,
None,None,None,None,None,None,ta.wav,bu.wav,0,249,249,249,,,,,135.8474599576696,test,001,2023-08-02_15h20.01.400,exposure_order_1,2022.2.5,None,
None,None,None,None,None,None,ti.wav,pa.wav,0,250,250,250,,,,,136.31395574966908,test,001,2023-08-02_15h20.01.400,exposure_order_1,2022.2.5,None,
None,None,None,None,None,None,du.wav,da.wav,0,251,251,251,,,,,136.78041724966923,test,001,2023-08-02_15h20.01.400,exposure_order_1,2022.2.5,None,
None,None,None,None,None,None,di.wav,ta.wav,0,252,252,252,,,,,137.2472079166694,test,001,2023-08-02_15h20.01.400,exposure_order_1,2022.2.5,None,
None,None,None,None,None,None,ba.wav,ti.wav,0,253,253,253,,,,,137.71386824967,test,001,2023-08-02_15h20.01.400,exposure_order_1,2022.2.5,None,
None,None,None,None,None,None,pu.wav,du.wav,0,254,254,254,,,,,138.1806113746682,test,001,2023-08-02_15h20.01.400,exposure_order_1,2022.2.5,None,
None,None,None,None,None,None,pi.wav,di.wav,0,255,255,255,,,,,138.64689924966686,test,001,2023-08-02_15h20.01.400,exposure_order_1,2022.2.5,None,
None,None,None,None,None,None,tu.wav,ba.wav,0,256,256,256,,,,,139.1139857496676,test,001,2023-08-02_15h20.01.400,exposure_order_1,2022.2.5,None,
None,None,None,None,None,None,bi.wav,pu.wav,0,257,257,257,,,,,139.5806221666683,test,001,2023-08-02_15h20.01.400,exposure_order_1,2022.2.5,None,
None,None,None,None,None,None,ta.wav,pi.wav,0,258,258,258,,,,,140.0471596666687,test,001,2023-08-02_15h20.01.400,exposure_order_1,2022.2.5,None,
None,None,None,None,None,None,ti.wav,tu.wav,0,259,259,259,,,,,140.51395016666746,test,001,2023-08-02_15h20.01.400,exposure_order_1,2022.2.5,None,
None,None,None,None,None,None,du.wav,bi.wav,0,260,260,260,,,,,140.98065224966948,test,001,2023-08-02_15h20.01.400,exposure_order_1,2022.2.5,None,
None,None,None,None,None,None,bu.wav,bu.wav,0,261,261,261,,,,,141.44719104166896,test,001,2023-08-02_15h20.01.400,exposure_order_1,2022.2.5,None,
None,None,None,None,None,None,pa.wav,pa.wav,0,262,262,262,,,,,141.91396099966758,test,001,2023-08-02_15h20.01.400,exposure_order_1,2022.2.5,None,
None,None,None,None,None,None,da.wav,da.wav,0,263,263,263,,,,,142.38077604166781,test,001,2023-08-02_15h20.01.400,exposure_order_1,2022.2.5,None,
None,None,None,None,None,None,di.wav,ta.wav,0,264,264,264,,,,,142.84730149966734,test,001,2023-08-02_15h20.01.400,exposure_order_1,2022.2.5,None,
None,None,None,None,None,None,ba.wav,ti.wav,0,265,265,265,,,,,143.31420183266917,test,001,2023-08-02_15h20.01.400,exposure_order_1,2022.2.5,None,
None,None,None,None,None,None,pu.wav,du.wav,0,266,266,266,,,,,143.78138204166706,test,001,2023-08-02_15h20.01.400,exposure_order_1,2022.2.5,None,
None,None,None,None,None,None,pi.wav,pi.wav,0,267,267,267,,,,,144.26631558266698,test,001,2023-08-02_15h20.01.400,exposure_order_1,2022.2.5,None,
None,None,None,None,None,None,tu.wav,tu.wav,0,268,268,268,,,,,144.7331029576674,test,001,2023-08-02_15h20.01.400,exposure_order_1,2022.2.5,None,
None,None,None,None,None,None,bi.wav,bi.wav,0,269,269,269,,,,,145.19953883266888,test,001,2023-08-02_15h20.01.400,exposure_order_1,2022.2.5,None,
None,None,None,None,None,None,ta.wav,bu.wav,0,270,270,270,,,,,145.6661220416684,test,001,2023-08-02_15h20.01.400,exposure_order_1,2022.2.5,None,
,,,,,,,,,,,,,,,,146.13306999966906,,,,,,,
